{"resourceType":"Patient","id":"patient-001","meta":{"versionId":"1","lastUpdated":"2026-02-07T10:00:00Z"},"identifier":[{"system":"http://hospital.example.org/mrn","value":"MRN12345"}],"active":true,"name":[{"use":"official","family":"Smith","given":["John","Robert"]}],"gender":"male","birthDate":"1985-03-15","address":[{"use":"home","line":["123 Main St"],"city":"Boston","state":"MA","postalCode":"02101"}],"telecom":[{"system":"phone","value":"555-123-4567","use":"home"}]}
{"resourceType":"Patient","id":"patient-002","meta":{"versionId":"1","lastUpdated":"2026-02-07T10:01:00Z"},"identifier":[{"system":"http://hospital.example.org/mrn","value":"MRN12346"}],"active":true,"name":[{"use":"official","family":"Johnson","given":["Emily","Grace"]}],"gender":"female","birthDate":"1992-07-22","address":[{"use":"home","line":["456 Oak Ave"],"city":"Cambridge","state":"MA","postalCode":"02139"}],"telecom":[{"system":"phone","value":"555-234-5678","use":"mobile"}]}
{"resourceType":"Patient","id":"patient-003","meta":{"versionId":"1","lastUpdated":"2026-02-07T10:02:00Z"},"identifier":[{"system":"http://hospital.example.org/mrn","value":"MRN12347"}],"active":true,"name":[{"use":"official","family":"Williams","given":["Michael"]}],"gender":"male","birthDate":"1978-11-08","address":[{"use":"home","line":["789 Pine Rd"],"city":"Somerville","state":"MA","postalCode":"02143"}]}
{"resourceType":"Observation","id":"obs-001","meta":{"versionId":"1","lastUpdated":"2026-02-07T10:05:00Z"},"status":"final","category":[{"coding":[{"system":"http://terminology.hl7.org/CodeSystem/observation-category","code":"vital-signs","display":"Vital Signs"}]}],"code":{"coding":[{"system":"http://loinc.org","code":"8867-4","display":"Heart rate"}],"text":"Heart rate"},"subject":{"reference":"Patient/patient-001"},"effectiveDateTime":"2026-02-07T09:30:00Z","valueQuantity":{"value":72,"unit":"beats/minute","system":"http://unitsofmeasure.org","code":"/min"}}
{"resourceType":"Observation","id":"obs-002","meta":{"versionId":"1","lastUpdated":"2026-02-07T10:06:00Z"},"status":"final","category":[{"coding":[{"system":"http://terminology.hl7.org/CodeSystem/observation-category","code":"vital-signs","display":"Vital Signs"}]}],"code":{"coding":[{"system":"http://loinc.org","code":"8310-5","display":"Body temperature"}],"text":"Body temperature"},"subject":{"reference":"Patient/patient-001"},"effectiveDateTime":"2026-02-07T09:30:00Z","valueQuantity":{"value":98.6,"unit":"[degF]","system":"http://unitsofmeasure.org","code":"[degF]"}}
{"resourceType":"Observation","id":"obs-003","meta":{"versionId":"1","lastUpdated":"2026-02-07T10:07:00Z"},"status":"final","category":[{"coding":[{"system":"http://terminology.hl7.org/CodeSystem/observation-category","code":"vital-signs","display":"Vital Signs"}]}],"code":{"coding":[{"system":"http://loinc.org","code":"85354-9","display":"Blood pressure panel"}],"text":"Blood pressure"},"subject":{"reference":"Patient/patient-002"},"effectiveDateTime":"2026-02-07T09:45:00Z","component":[{"code":{"coding":[{"system":"http://loinc.org","code":"8480-6","display":"Systolic blood pressure"}]},"valueQuantity":{"value":120,"unit":"mmHg","system":"http://unitsofmeasure.org","code":"mm[Hg]"}},{"code":{"coding":[{"system":"http://loinc.org","code":"8462-4","display":"Diastolic blood pressure"}]},"valueQuantity":{"value":80,"unit":"mmHg","system":"http://unitsofmeasure.org","code":"mm[Hg]"}}]}
{"resourceType":"Observation","id":"obs-004","meta":{"versionId":"1","lastUpdated":"2026-02-07T10:08:00Z"},"status":"final","category":[{"coding":[{"system":"http://terminology.hl7.org/CodeSystem/observation-category","code":"laboratory","display":"Laboratory"}]}],"code":{"coding":[{"system":"http://loinc.org","code":"2339-0","display":"Glucose [Mass/volume] in Blood"}],"text":"Blood Glucose"},"subject":{"reference":"Patient/patient-003"},"effectiveDateTime":"2026-02-07T08:00:00Z","valueQuantity":{"value":95,"unit":"mg/dL","system":"http://unitsofmeasure.org","code":"mg/dL"}}
{"resourceType":"Encounter","id":"enc-001","meta":{"versionId":"1","lastUpdated":"2026-02-07T10:10:00Z"},"status":"finished","class":{"system":"http://terminology.hl7.org/CodeSystem/v3-ActCode","code":"AMB","display":"ambulatory"},"type":[{"coding":[{"system":"http://snomed.info/sct","code":"185345009","display":"Encounter for check up"}]}],"subject":{"reference":"Patient/patient-001"},"period":{"start":"2026-02-07T09:00:00Z","end":"2026-02-07T10:00:00Z"},"reasonCode":[{"coding":[{"system":"http://snomed.info/sct","code":"410429000","display":"Cardiology consultation"}]}]}
{"resourceType":"Encounter","id":"enc-002","meta":{"versionId":"1","lastUpdated":"2026-02-07T10:11:00Z"},"status":"in-progress","class":{"system":"http://terminology.hl7.org/CodeSystem/v3-ActCode","code":"EMER","display":"emergency"},"type":[{"coding":[{"system":"http://snomed.info/sct","code":"50849002","display":"Emergency room admission"}]}],"subject":{"reference":"Patient/patient-002"},"period":{"start":"2026-02-07T08:30:00Z"},"reasonCode":[{"coding":[{"system":"http://snomed.info/sct","code":"21522001","display":"Abdominal pain"}]}]}
{"resourceType":"Condition","id":"cond-001","meta":{"versionId":"1","lastUpdated":"2026-02-07T10:15:00Z"},"clinicalStatus":{"coding":[{"system":"http://terminology.hl7.org/CodeSystem/condition-clinical","code":"active","display":"Active"}]},"verificationStatus":{"coding":[{"system":"http://terminology.hl7.org/CodeSystem/condition-ver-status","code":"confirmed","display":"Confirmed"}]},"category":[{"coding":[{"system":"http://terminology.hl7.org/CodeSystem/condition-category","code":"encounter-diagnosis","display":"Encounter Diagnosis"}]}],"code":{"coding":[{"system":"http://snomed.info/sct","code":"38341003","display":"Hypertensive disorder"}],"text":"Hypertension"},"subject":{"reference":"Patient/patient-001"},"onsetDateTime":"2020-05-15"}
{"resourceType":"Condition","id":"cond-002","meta":{"versionId":"1","lastUpdated":"2026-02-07T10:16:00Z"},"clinicalStatus":{"coding":[{"system":"http://terminology.hl7.org/CodeSystem/condition-clinical","code":"active","display":"Active"}]},"verificationStatus":{"coding":[{"system":"http://terminology.hl7.org/CodeSystem/condition-ver-status","code":"confirmed","display":"Confirmed"}]},"category":[{"coding":[{"system":"http://terminology.hl7.org/CodeSystem/condition-category","code":"problem-list-item","display":"Problem List Item"}]}],"code":{"coding":[{"system":"http://snomed.info/sct","code":"73211009","display":"Diabetes mellitus"}],"text":"Type 2 Diabetes"},"subject":{"reference":"Patient/patient-003"},"onsetDateTime":"2018-01-10"}
{"resourceType":"MedicationRequest","id":"medrx-001","meta":{"versionId":"1","lastUpdated":"2026-02-07T10:20:00Z"},"status":"active","intent":"order","medicationCodeableConcept":{"coding":[{"system":"http://www.nlm.nih.gov/research/umls/rxnorm","code":"197361","display":"Lisinopril 10 MG Oral Tablet"}],"text":"Lisinopril 10mg"},"subject":{"reference":"Patient/patient-001"},"authoredOn":"2026-02-07T10:00:00Z","dosageInstruction":[{"text":"Take one tablet daily","timing":{"repeat":{"frequency":1,"period":1,"periodUnit":"d"}},"doseAndRate":[{"doseQuantity":{"value":1,"unit":"tablet"}}]}]}
{"resourceType":"MedicationRequest","id":"medrx-002","meta":{"versionId":"1","lastUpdated":"2026-02-07T10:21:00Z"},"status":"active","intent":"order","medicationCodeableConcept":{"coding":[{"system":"http://www.nlm.nih.gov/research/umls/rxnorm","code":"860975","display":"Metformin hydrochloride 500 MG Oral Tablet"}],"text":"Metformin 500mg"},"subject":{"reference":"Patient/patient-003"},"authoredOn":"2026-02-07T09:00:00Z","dosageInstruction":[{"text":"Take one tablet twice daily with meals","timing":{"repeat":{"frequency":2,"period":1,"periodUnit":"d"}},"doseAndRate":[{"doseQuantity":{"value":1,"unit":"tablet"}}]}]}
{"resourceType":"Immunization","id":"imm-001","meta":{"versionId":"1","lastUpdated":"2026-02-07T10:25:00Z"},"status":"completed","vaccineCode":{"coding":[{"system":"http://hl7.org/fhir/sid/cvx","code":"208","display":"COVID-19, mRNA, LNP-S, PF, 30 mcg/0.3 mL dose"}],"text":"COVID-19 Vaccine"},"patient":{"reference":"Patient/patient-001"},"occurrenceDateTime":"2026-01-15T14:00:00Z","primarySource":true,"lotNumber":"EK9788","site":{"coding":[{"system":"http://terminology.hl7.org/CodeSystem/v3-ActSite","code":"LA","display":"left arm"}]}}
{"resourceType":"Immunization","id":"imm-002","meta":{"versionId":"1","lastUpdated":"2026-02-07T10:26:00Z"},"status":"completed","vaccineCode":{"coding":[{"system":"http://hl7.org/fhir/sid/cvx","code":"140","display":"Influenza, seasonal, injectable, preservative free"}],"text":"Flu Shot"},"patient":{"reference":"Patient/patient-002"},"occurrenceDateTime":"2025-10-01T10:30:00Z","primarySource":true,"lotNumber":"FL2025A","site":{"coding":[{"system":"http://terminology.hl7.org/CodeSystem/v3-ActSite","code":"RA","display":"right arm"}]}}
